Folder: ExPoBeam

File: pixelframe_beam1.csv
"Time", "Load (lb)", "Position (in)", "AxialStrain (in)", "TransverseStrain (in)", "Auxiliary ()", "Control Out (V)", "Stress (psi)"
0.0, 194.118, 0.0, 0.008311861, -0.0029278, NaN, 0.0592077, "- N/A -   "
8, 226.657, 0.006255768, 0.00753537, -0.00255098, NaN, 0.0897272, "- N/A -   "
16, 251.343, 0.013012, 0.006867797, -0.00228291, NaN, 0.0897272, "- N/A -   "
24, 276.0284, 0.0197682, 0.006163918, -0.00200606, NaN, 0.0592077, "- N/A -   "
32, 302.958, 0.0262742, 0.00535112, -0.00167428, NaN, 0.0897272, "- N/A -   "
40, 342.23, 0.0330305, 0.004212733, -0.00119749, NaN, 0.0897272, "- N/A -   "
48, 383.7468, 0.03978668, 0.00306029, -6.833362E-4, NaN, 0.0592077, "- N/A -   "
56, 424.1412, 0.04629268, 0.001987492, -0.000194454, NaN, 0.0897272, "- N/A -   "
64, 464.5356, 0.05279868, 0.000959196, 2.789568E-4, NaN, 0.119026, "- N/A -   "
72, 507.174, 0.0598051, 2.10812e-05, 0.000662933, NaN, 0.0592077, "- N/A -   "
80, 543.08, 0.0663111, -0.000734189, 0.000907977, NaN, 0.0897272, "- N/A -   "
88, 581.2305, 0.07281713, -0.001464853, 0.00114974, NaN, 0.119026, "- N/A -   "
96, 621.625, 0.07957336, -0.00223076, 0.00143526, NaN, 0.0897272, "- N/A -   "
104, 659.7752, 0.08632959, -0.0029485, 0.00171312, NaN, 0.0897272, "- N/A -   "
112, 695.6814, 0.09283559, -0.00366977, 0.00197129, NaN, 0.0897272, "- N/A -   "
120, 736.076, 0.09959182, -0.0044298, 0.002221809, NaN, 0.0897272, "- N/A -   "
128, 756.273, 0.106348, -0.005095856, 0.00220431, NaN, 0.0897272, "- N/A -   "
136, 794.4232, 0.112854, -0.00582417, 0.00230276, NaN, 0.0897272, "- N/A -   "
144, 832.574, 0.11961, -0.006602998, 0.002453726, NaN, 0.0897272, "- N/A -   "
152, 868.4796, 0.126367, -0.007366554, 0.00255984, NaN, 0.0897272, "- N/A -   "
160, 903.2637, 0.1328725, -0.00813246, 0.00271409, NaN, 0.0897272, "- N/A -   "
168, 942.536, 0.139629, -0.008921859, 0.00288255, NaN, 0.0897272, "- N/A -   "
176, 979.5642, 0.146385, -0.009638427, 0.00301602, NaN, 0.0897272, "- N/A -   "
184, 1018.84, 0.152891, -0.0103797, 0.00318448, NaN, 0.0897272, "- N/A -   "
192, 1055.86, 0.1596472, -0.0111467, 0.00335623, NaN, 0.0897272, "- N/A -   "
200, 1095.14, 0.166153, -0.0118821, 0.00352798, NaN, 0.119026, "- N/A -   "
208, 1134.41, 0.172909, -0.0126151, 0.00369536, NaN, 0.0897272, "- N/A -   "
216, 1174.8, 0.179666, -0.0133082, 0.00385945, NaN, 0.0897272, "- N/A -   "
224, 1211.832, 0.186172, -0.0139766, 0.00400057, NaN, 0.0897272, "- N/A -   "
232, 1248.86, 0.192928, -0.0146673, 0.004130749, NaN, 0.0897272, "- N/A -   "
240, 1289.25, 0.1996841, -0.0153451, 0.004272962, NaN, 0.0897272, "- N/A -   "
248, 1327.4, 0.20619, -0.0160112, 0.00439986, NaN, 0.0897272, "- N/A -   "
256, 1365.56, 0.212946, -0.0166761, 0.00452457, NaN, 0.0897272, "- N/A -   "
264, 1403.71, 0.219452, -0.0173139, 0.004645998, NaN, 0.119026, "- N/A -   "
272, 1441.86, 0.226209, -0.01795649, 0.004752111, NaN, 0.0897272, "- N/A -   "
280, 1482.25, 0.232965, -0.0186084, 0.00485604, NaN, 0.0897272, "- N/A -   "
288, 1519.28, 0.2394708, -0.0192404, 0.00495668, NaN, 0.119026, "- N/A -   "
296, 1558.55, 0.246227, -0.01986303, 0.00504748, NaN, 0.0897272, "- N/A -   "
304, 1595.58, 0.252983, -0.0204363, 0.00517547, NaN, 0.0897272, "- N/A -   "
312, 1632.607, 0.259489, -0.02099779, 0.005290334, NaN, 0.119026, "- N/A -   "
320, 1668.51, 0.266245, -0.021584, 0.005404105, NaN, 0.0897272, "- N/A -   "
328, 1707.79, 0.2730017, -0.0221596, 0.005506936, NaN, 0.0897272, "- N/A -   "
336, 1745.94, 0.2795077, -0.0227058, 0.005601015, NaN, 0.0897272, "- N/A -   "
344, 1782.964, 0.2862639, -0.0232567, 0.005684155, NaN, 0.0897272, "- N/A -   "
352, 1819.99, 0.29302, -0.0237948, 0.00576292, NaN, 0.0897272, "- N/A -   "
360, 1857.02, 0.299526, -0.0243198, 0.00582856, NaN, 0.0897272, "- N/A -   "
368, 1895.17, 0.3062824, -0.0248567, 0.00590404, NaN, 0.0897272, "- N/A -   "
376, 1933.32, 0.3127884, -0.0253858, 0.00597843, NaN, 0.119026, "- N/A -   "
384, 1971.47, 0.3195446, -0.0259156, 0.006055004, NaN, 0.0897272, "- N/A -   "
392, 2010.74, 0.326301, -0.0264289, 0.00613158, NaN, 0.0897272, "- N/A -   "
400, 2046.65, 0.332807, -0.02692326, 0.00620816, NaN, 0.119026, "- N/A -   "
408, 2081.43, 0.339563, -0.02744832, 0.00628692, NaN, 0.0897272, "- N/A -   "
416, 2115.1, 0.346319, -0.0279026, 0.006367873, NaN, 0.0897272, "- N/A -   "
424, 2149.88, 0.352825, -0.0283639, 0.0064346, NaN, 0.119026, "- N/A -   "
432, 2185.786, 0.359582, -0.0288453, 0.00650571, NaN, 0.0897272, "- N/A -   "
440, 2222.81, 0.3660875, -0.0293515, 0.006575723, NaN, 0.119026, "- N/A -   "
448, 2258.72, 0.372844, -0.0298459, 0.006654487, NaN, 0.0897272, "- N/A -   "
456, 2295.75, 0.3796, -0.0303627, 0.00671903, NaN, 0.0897272, "- N/A -   "
464, 2329.41, 0.386106, -0.0308193, 0.00677701, NaN, 0.119026, "- N/A -   "
472, 2364.19, 0.3928622, -0.03125, 0.00680655, NaN, 0.0897272, "- N/A -   "
480, 2403.47, 0.399618, -0.0317243, 0.006857962, NaN, 0.0897272, "- N/A -   "
488, 2439.373, 0.406124, -0.0321739, 0.00691047, NaN, 0.119026, "- N/A -   "
496, 2473.035, 0.4128807, -0.032647, 0.00695861, NaN, 0.0897272, "- N/A -   "
504, 2511.19, 0.4196369, -0.0331355, 0.00700455, NaN, 0.0897272, "- N/A -   "
512, 2544.85, 0.4261429, -0.0336086, 0.0070494, NaN, 0.119026, "- N/A -   "
520, 2581.88, 0.432899, -0.03409005, 0.00711176, NaN, 0.0897272, "- N/A -   "
528, 2616.66, 0.439655, -0.0345691, 0.00716427, NaN, 0.0897272, "- N/A -   "
536, 2649.2, 0.446161, -0.0350387, 0.007224434, NaN, 0.0897272, "- N/A -   "
544, 2686.23, 0.452918, -0.035539, 0.00727585, NaN, 0.0897272, "- N/A -   "
552, 2721.01, 0.459424, -0.0360404, 0.00733055, NaN, 0.119026, "- N/A -   "
560, 2751.31, 0.4661798, -0.03651123, 0.007402748, NaN, 0.0897272, "- N/A -   "
568, 2786.09, 0.472936, -0.03697494, 0.00749683, NaN, 0.0897272, "- N/A -   "
576, 2820.88, 0.479442, -0.0374375, 0.00756465, NaN, 0.119026, "- N/A -   "
584, 2851.17, 0.486198, -0.0378304, 0.00771234, NaN, 0.0897272, "- N/A -   "
592, 2888.2, 0.492954, -0.0383696, 0.00777688, NaN, 0.0897272, "- N/A -   "
600, 2921.86, 0.4994605, -0.03886044, 0.007843609, NaN, 0.119026, "- N/A -   "
608, 2955.52, 0.5062167, -0.0393867, 0.007896119, NaN, 0.0897272, "- N/A -   "
616, 2992.552, 0.512973, -0.0399507, 0.007937689, NaN, 0.0897272, "- N/A -   "
624, 3021.73, 0.5194789, -0.0404722, 0.007989104, NaN, 0.119026, "- N/A -   "
632, 3057.63, 0.526235, -0.0410114, 0.008042708, NaN, 0.0897272, "- N/A -   "
640, 3090.17, 0.5329914, -0.04141377, 0.008090842, NaN, 0.0897272, "- N/A -   "
648, 3120.47, 0.5394974, -0.04186922, 0.008106156, NaN, 0.0897272, "- N/A -   "
656, 3156.37, 0.5462536, -0.04240726, 0.008138975, NaN, 0.0897272, "- N/A -   "
664, 3191.16, 0.55276, -0.0429335, 0.008157573, NaN, 0.119026, "- N/A -   "
672, 3223.7, 0.559516, -0.0434538, 0.008189296, NaN, 0.0897272, "- N/A -   "
680, 3258.48, 0.5662721, -0.0440084, 0.008221022, NaN, 0.0897272, "- N/A -   "
688, 3291.02, 0.5727781, -0.0445346, 0.008246182, NaN, 0.119026, "- N/A -   "
696, 3322.44, 0.579534, -0.04506678, 0.008266967, NaN, 0.0897272, "- N/A -   "
704, 3356.1, 0.586291, -0.0456107, 0.008292127, NaN, 0.0897272, "- N/A -   "
712, 3385.28, 0.592797, -0.0461511, 0.008326041, NaN, 0.119026, "- N/A -   "
720, 3418.94, 0.599553, -0.0466974, 0.008351201, NaN, 0.0897272, "- N/A -   "
728, 3453.72, 0.606309, -0.0472307, 0.008382926, NaN, 0.0897272, "- N/A -   "
736, 3479.53, 0.612815, -0.0477688, 0.008417932, NaN, 0.119026, "- N/A -   "
744, 3513.191, 0.6195712, -0.04832806, 0.00845622, NaN, 0.0897272, "- N/A -   "
752, 3545.73, 0.6263274, -0.0488779, 0.008483569, NaN, 0.0897272, "- N/A -   "
760, 3577.15, 0.6328335, -0.0494018, 0.008516388, NaN, 0.0897272, "- N/A -   "
768, 3606.32, 0.63959, -0.0499587, 0.008532796, NaN, 0.0897272, "- N/A -   "
776, 3637.74, 0.646096, -0.0505047, 0.008565615, NaN, 0.119026, "- N/A -   "
784, 3666.914, 0.652852, -0.0510236, 0.008608279, NaN, 0.0897272, "- N/A -   "
792, 3698.33, 0.6596081, -0.05159449, 0.008659694, NaN, 0.0897272, "- N/A -   "
800, 3725.26, 0.6661141, -0.0521122, 0.008704546, NaN, 0.119026, "- N/A -   "
808, 3757.8, 0.6728704, -0.0526795, 0.008745022, NaN, 0.0897272, "- N/A -   "
816, 3786.975, 0.6796266, -0.0531807, 0.008790969, NaN, 0.0897272, "- N/A -   "
824, 3815.03, 0.6861326, -0.053657, 0.008823787, NaN, 0.119026, "- N/A -   "
832, 3847.57, 0.6928888, -0.0542043, 0.008860981, NaN, 0.0897272, "- N/A -   "
840, 3876.74, 0.6993948, -0.0547326, 0.008887236, NaN, 0.119026, "- N/A -   "
848, 3904.792, 0.706151, -0.055209, 0.008892706, NaN, 0.119026, "- N/A -   "
856, 3937.332, 0.712907, -0.0557539, 0.008923336, NaN, 0.0897272, "- N/A -   "
864, 3965.38, 0.7194133, -0.0562716, 0.00896162, NaN, 0.119026, "- N/A -   "
872, 3995.68, 0.7261695, -0.0567692, 0.008998819, NaN, 0.0897272, "- N/A -   "
880, 4022.61, 0.7329257, -0.0571238, 0.008997725, NaN, 0.0897272, "- N/A -   "
888, 4006.9, 0.7394317, -0.055891, 0.008261498, NaN, 0.119026, "- N/A -   "
896, 4046.17, 0.746188, -0.0563141, 0.008235243, NaN, 0.0897272, "- N/A -   "
904, 4079.83, 0.7529442, -0.0567739, 0.008218833, NaN, 0.0897272, "- N/A -   "
912, 4111.25, 0.75945, -0.0571687, 0.008207894, NaN, 0.119026, "- N/A -   "
920, 4140.43, 0.766206, -0.0575647, 0.008234149, NaN, 0.0897272, "- N/A -   "
928, 4170.722, 0.7729626, -0.0579736, 0.008245088, NaN, 0.0897272, "- N/A -   "
936, 4195.407, 0.779469, -0.05831285, 0.008260404, NaN, 0.119026, "- N/A -   "
944, 4221.215, 0.7862249, -0.0586816, 0.008291034, NaN, 0.0897272, "- N/A -   "
952, 4252.633, 0.792731, -0.0591071, 0.008296504, NaN, 0.119026, "- N/A -   "
960, 4282.928, 0.7994871, -0.0595161, 0.008303068, NaN, 0.0897272, "- N/A -   "
968, 4304.25, 0.8062433, -0.0599132, 0.008346825, NaN, 0.0897272, "- N/A -   "
976, 1743.69, 0.8129996, -0.04158132, 0.010608, NaN, 0.0897272, "- N/A -   "
976.5, 1747.06, 0.8135, -0.04162144, 0.01061458, NaN, 0.0592077, "- N/A -   "